{"resourceType":"Bundle","id":"tests-0d087114-9d01-4e91-8851-cec99839723b-bundle","type":"transaction","entry":[{"fullUrl":"https://madie.cms.gov/Patient/0d087114-9d01-4e91-8851-cec99839723b","resource":{"resourceType":"Patient","id":"0d087114-9d01-4e91-8851-cec99839723b","meta":{"profile":["http://hl7.org/fhir/us/qicore/StructureDefinition/qicore-patient"]},"extension":[{"url":"http://hl7.org/fhir/us/core/StructureDefinition/us-core-race","extension":[{"url":"ombCategory","valueCoding":{"system":"urn:oid:2.16.840.1.113883.6.238","code":"2028-9","display":"Asian"}},{"url":"text","valueString":"Asian"}]},{"url":"http://hl7.org/fhir/us/core/StructureDefinition/us-core-ethnicity","extension":[{"url":"ombCategory","valueCoding":{"system":"urn:oid:2.16.840.1.113883.6.238","code":"2135-2","display":"Hispanic or Latino"}},{"url":"text","valueString":"Hispanic or Latino"}]}],"identifier":[{"system":"http://hospital.smarthealthit.org","value":"999999995"}],"name":[{"family":"Bertha","given":["Betty"]}],"gender":"female","birthDate":"2022-01-01"},"request":{"method":"PUT","url":"Patient/0d087114-9d01-4e91-8851-cec99839723b"}},{"fullUrl":"https://madie.cms.gov/Encounter/Encounter-1","resource":{"resourceType":"Encounter","id":"Encounter-1","meta":{"profile":["http://hl7.org/fhir/us/qicore/StructureDefinition/qicore-encounter"]},"status":"finished","class":{"system":"http://terminology.hl7.org/CodeSystem/v3-ActCode","code":"AMB","display":"ambulatory"},"type":[{"coding":[{"system":"http://snomed.info/sct","code":"185317003","display":"Telephone encounter (procedure)"}]}],"subject":{"reference":"Patient/0d087114-9d01-4e91-8851-cec99839723b"},"period":{"start":"2025-01-02T00:00:00.000Z","end":"2025-01-02T01:15:00.000Z"}},"request":{"method":"PUT","url":"Encounter/Encounter-1"}},{"fullUrl":"https://madie.cms.gov/MedicationRequest/MedicationRequest-1","resource":{"resourceType":"MedicationRequest","id":"MedicationRequest-1","meta":{"profile":["http://hl7.org/fhir/us/qicore/StructureDefinition/qicore-medicationrequest"]},"status":"active","intent":"order","category":[{"coding":[{"system":"http://terminology.hl7.org/CodeSystem/medicationrequest-category","code":"discharge","display":"Discharge"}]}],"medicationCodeableConcept":{"coding":[{"system":"http://www.nlm.nih.gov/research/umls/rxnorm","code":"1043022","display":"cefixime 100 MG Chewable Tablet","userSelected":true}]},"subject":{"reference":"Patient/0d087114-9d01-4e91-8851-cec99839723b"},"authoredOn":"2025-01-04T00:00:00.000Z","requester":{"reference":"Practitioner/practitioner-123456"}},"request":{"method":"PUT","url":"MedicationRequest/MedicationRequest-1"}},{"fullUrl":"https://madie.cms.gov/Condition/Condition-1","resource":{"resourceType":"Condition","id":"Condition-1","meta":{"profile":["http://hl7.org/fhir/us/qicore/StructureDefinition/qicore-condition"]},"clinicalStatus":{"coding":[{"system":"http://terminology.hl7.org/CodeSystem/condition-clinical","code":"active"}]},"category":[{"coding":[{"system":"http://terminology.hl7.org/CodeSystem/condition-category","code":"problem-list-item","display":"Problem List Item"}]}],"code":{"coding":[{"system":"http://snomed.info/sct","code":"1532007","display":"Viral pharyngitis (disorder)"}]},"subject":{"reference":"Patient/0d087114-9d01-4e91-8851-cec99839723b"},"onsetDateTime":"2025-01-02T00:00:00.000Z"},"request":{"method":"PUT","url":"Condition/Condition-1"}},{"fullUrl":"https://madie.cms.gov/MeasureReport/dbc0cef8-7e19-4b68-bcc0-4dd43f4c007a","resource":{"resourceType":"MeasureReport","id":"dbc0cef8-7e19-4b68-bcc0-4dd43f4c007a","meta":{"profile":["http://hl7.org/fhir/us/cqfmeasures/StructureDefinition/test-case-cqfm"]},"contained":[{"resourceType":"Parameters","id":"836cbc9e-7ad3-4185-91d1-ceb508cc3071-parameters","parameter":[{"name":"subject","valueString":"0d087114-9d01-4e91-8851-cec99839723b"}]}],"extension":[{"url":"http://hl7.org/fhir/us/cqfmeasures/StructureDefinition/cqfm-inputParameters","valueReference":{"reference":"#836cbc9e-7ad3-4185-91d1-ceb508cc3071-parameters"}},{"url":"http://hl7.org/fhir/us/cqfmeasures/StructureDefinition/cqfm-testCaseDescription","valueMarkdown":"Patient is 3 at the start pf the MP, has a qualifying ED encounter, and has pharyngitis with antibiotics"}],"modifierExtension":[{"url":"http://hl7.org/fhir/us/cqfmeasures/StructureDefinition/cqfm-isTestCase","valueBoolean":true}],"status":"complete","type":"individual","measure":"https://madie.cms.gov/Measure/AppropriateTestingforPharyngitisFHIR","period":{"start":"2025-01-01","end":"2025-12-31"},"group":[{"population":[{"code":{"coding":[{"system":"http://terminology.hl7.org/CodeSystem/measure-population","code":"initial-population","display":"Initial Population"}]},"count":1},{"code":{"coding":[{"system":"http://terminology.hl7.org/CodeSystem/measure-population","code":"denominator","display":"Denominator"}]},"count":1},{"code":{"coding":[{"system":"http://terminology.hl7.org/CodeSystem/measure-population","code":"denominator-exclusion","display":"Denominator Exclusion"}]},"count":0},{"code":{"coding":[{"system":"http://terminology.hl7.org/CodeSystem/measure-population","code":"numerator","display":"Numerator"}]},"count":0}]}],"evaluatedResource":[{"reference":"Patient/0d087114-9d01-4e91-8851-cec99839723b"},{"reference":"Encounter/Encounter-1"},{"reference":"MedicationRequest/MedicationRequest-1"},{"reference":"Condition/Condition-1"}]},"request":{"method":"PUT","url":"MeasureReport/dbc0cef8-7e19-4b68-bcc0-4dd43f4c007a"}}]}