{"resourceType":"Bundle","id":"tests-6cc89822-c91e-4e94-8fcf-5f5d7497e695-bundle","type":"transaction","entry":[{"fullUrl":"https://madie.cms.gov/Patient/6cc89822-c91e-4e94-8fcf-5f5d7497e695","resource":{"resourceType":"Patient","id":"6cc89822-c91e-4e94-8fcf-5f5d7497e695","meta":{"profile":["http://hl7.org/fhir/us/qicore/StructureDefinition/qicore-patient"]},"extension":[{"url":"http://hl7.org/fhir/us/core/StructureDefinition/us-core-race","extension":[{"url":"ombCategory","valueCoding":{"system":"urn:oid:2.16.840.1.113883.6.238","code":"2028-9","display":"Asian"}},{"url":"text","valueString":"Asian"}]},{"url":"http://hl7.org/fhir/us/core/StructureDefinition/us-core-ethnicity","extension":[{"url":"ombCategory","valueCoding":{"system":"urn:oid:2.16.840.1.113883.6.238","code":"2135-2","display":"Hispanic or Latino"}},{"url":"text","valueString":"Hispanic or Latino"}]}],"identifier":[{"system":"http://hospital.smarthealthit.org","value":"999999995"}],"name":[{"family":"Bertha","given":["Betty"]}],"gender":"female","birthDate":"1960-01-01"},"request":{"method":"PUT","url":"Patient/6cc89822-c91e-4e94-8fcf-5f5d7497e695"}},{"fullUrl":"https://madie.cms.gov/Encounter/Encounter-7","resource":{"resourceType":"Encounter","id":"Encounter-7","meta":{"profile":["http://hl7.org/fhir/us/qicore/StructureDefinition/qicore-encounter"]},"status":"finished","class":{"system":"http://terminology.hl7.org/CodeSystem/v3-ActCode","code":"AMB","display":"ambulatory"},"type":[{"coding":[{"system":"http://snomed.info/sct","code":"185317003","display":"Telephone encounter (procedure)"}]}],"subject":{"reference":"Patient/6cc89822-c91e-4e94-8fcf-5f5d7497e695"},"period":{"start":"2025-01-02T00:00:00.000Z","end":"2025-01-02T01:15:00.000Z"}},"request":{"method":"PUT","url":"Encounter/Encounter-7"}},{"fullUrl":"https://madie.cms.gov/MedicationRequest/MedicationRequest-7","resource":{"resourceType":"MedicationRequest","id":"MedicationRequest-7","meta":{"profile":["http://hl7.org/fhir/us/qicore/StructureDefinition/qicore-medicationrequest"]},"status":"active","intent":"order","category":[{"coding":[{"system":"http://terminology.hl7.org/CodeSystem/medicationrequest-category","code":"discharge","display":"Discharge"}]}],"medicationCodeableConcept":{"coding":[{"system":"http://www.nlm.nih.gov/research/umls/rxnorm","code":"1043022","display":"cefixime 100 MG Chewable Tablet","userSelected":true}]},"subject":{"reference":"Patient/6cc89822-c91e-4e94-8fcf-5f5d7497e695"},"authoredOn":"2025-01-04T00:00:00.000Z","requester":{"reference":"Practitioner/practitioner-123456"}},"request":{"method":"PUT","url":"MedicationRequest/MedicationRequest-7"}},{"fullUrl":"https://madie.cms.gov/Condition/Condition-7","resource":{"resourceType":"Condition","id":"Condition-7","meta":{"profile":["http://hl7.org/fhir/us/qicore/StructureDefinition/qicore-condition"]},"clinicalStatus":{"coding":[{"system":"http://terminology.hl7.org/CodeSystem/condition-clinical","code":"active"}]},"category":[{"coding":[{"system":"http://terminology.hl7.org/CodeSystem/condition-category","code":"problem-list-item","display":"Problem List Item"}]}],"code":{"coding":[{"system":"http://snomed.info/sct","code":"10041001","display":"Tracheal stenosis following tracheostomy (disorder)"}]},"subject":{"reference":"Patient/6cc89822-c91e-4e94-8fcf-5f5d7497e695"},"onsetDateTime":"2024-01-02T00:00:00.000Z"},"request":{"method":"PUT","url":"Condition/Condition-7"}},{"fullUrl":"https://madie.cms.gov/Condition/Condition-8","resource":{"resourceType":"Condition","id":"Condition-8","meta":{"profile":["http://hl7.org/fhir/us/qicore/StructureDefinition/qicore-condition"]},"clinicalStatus":{"coding":[{"system":"http://terminology.hl7.org/CodeSystem/condition-clinical","code":"active"}]},"category":[{"coding":[{"system":"http://terminology.hl7.org/CodeSystem/condition-category","code":"problem-list-item","display":"Problem List Item"}]}],"code":{"coding":[{"system":"http://snomed.info/sct","code":"1532007","display":"Viral pharyngitis (disorder)"}]},"subject":{"reference":"Patient/6cc89822-c91e-4e94-8fcf-5f5d7497e695"},"onsetDateTime":"2025-01-02T00:00:00.000Z"},"request":{"method":"PUT","url":"Condition/Condition-8"}},{"fullUrl":"https://madie.cms.gov/MeasureReport/91e0464a-1e93-4467-9d48-bf504363e4bb","resource":{"resourceType":"MeasureReport","id":"91e0464a-1e93-4467-9d48-bf504363e4bb","meta":{"profile":["http://hl7.org/fhir/us/cqfmeasures/StructureDefinition/test-case-cqfm"]},"contained":[{"resourceType":"Parameters","id":"db753091-599c-467d-a083-1b1b854f23e4-parameters","parameter":[{"name":"subject","valueString":"6cc89822-c91e-4e94-8fcf-5f5d7497e695"}]}],"extension":[{"url":"http://hl7.org/fhir/us/cqfmeasures/StructureDefinition/cqfm-inputParameters","valueReference":{"reference":"#db753091-599c-467d-a083-1b1b854f23e4-parameters"}},{"url":"http://hl7.org/fhir/us/cqfmeasures/StructureDefinition/cqfm-testCaseDescription","valueMarkdown":"Comorbid diagnosis occurs 1 year before the episode date."}],"modifierExtension":[{"url":"http://hl7.org/fhir/us/cqfmeasures/StructureDefinition/cqfm-isTestCase","valueBoolean":true}],"status":"complete","type":"individual","measure":"https://madie.cms.gov/Measure/AppropriateTestingforPharyngitisFHIR","period":{"start":"2025-01-01","end":"2025-12-31"},"group":[{"population":[{"code":{"coding":[{"system":"http://terminology.hl7.org/CodeSystem/measure-population","code":"initial-population","display":"Initial Population"}]},"count":1},{"code":{"coding":[{"system":"http://terminology.hl7.org/CodeSystem/measure-population","code":"denominator","display":"Denominator"}]},"count":1},{"code":{"coding":[{"system":"http://terminology.hl7.org/CodeSystem/measure-population","code":"denominator-exclusion","display":"Denominator Exclusion"}]},"count":1},{"code":{"coding":[{"system":"http://terminology.hl7.org/CodeSystem/measure-population","code":"numerator","display":"Numerator"}]},"count":0}]}],"evaluatedResource":[{"reference":"Patient/6cc89822-c91e-4e94-8fcf-5f5d7497e695"},{"reference":"Encounter/Encounter-7"},{"reference":"MedicationRequest/MedicationRequest-7"},{"reference":"Condition/Condition-7"},{"reference":"Condition/Condition-8"}]},"request":{"method":"PUT","url":"MeasureReport/91e0464a-1e93-4467-9d48-bf504363e4bb"}}]}