{"resourceType":"Bundle","id":"tests-925b4f30-ea5c-47c3-a24f-8bfcec5dcdf6-bundle","type":"transaction","entry":[{"fullUrl":"https://madie.cms.gov/Patient/925b4f30-ea5c-47c3-a24f-8bfcec5dcdf6","resource":{"resourceType":"Patient","id":"925b4f30-ea5c-47c3-a24f-8bfcec5dcdf6","meta":{"profile":["http://hl7.org/fhir/us/qicore/StructureDefinition/qicore-patient"]},"extension":[{"url":"http://hl7.org/fhir/us/core/StructureDefinition/us-core-race","extension":[{"url":"ombCategory","valueCoding":{"system":"urn:oid:2.16.840.1.113883.6.238","code":"2028-9","display":"Asian"}},{"url":"text","valueString":"Asian"}]},{"url":"http://hl7.org/fhir/us/core/StructureDefinition/us-core-ethnicity","extension":[{"url":"ombCategory","valueCoding":{"system":"urn:oid:2.16.840.1.113883.6.238","code":"2135-2","display":"Hispanic or Latino"}},{"url":"text","valueString":"Hispanic or Latino"}]}],"identifier":[{"system":"http://hospital.smarthealthit.org","value":"999999995"}],"name":[{"family":"Bertha","given":["Betty"]}],"gender":"female","birthDate":"2007-04-30"},"request":{"method":"PUT","url":"Patient/925b4f30-ea5c-47c3-a24f-8bfcec5dcdf6"}},{"fullUrl":"https://madie.cms.gov/Encounter/Encounter-5","resource":{"resourceType":"Encounter","id":"Encounter-5","meta":{"profile":["http://hl7.org/fhir/us/qicore/StructureDefinition/qicore-encounter"]},"status":"finished","class":{"system":"http://terminology.hl7.org/CodeSystem/v3-ActCode","code":"AMB","display":"ambulatory"},"type":[{"coding":[{"system":"http://snomed.info/sct","code":"3391000175108","display":"Office visit for pediatric care and assessment (procedure)"}]}],"subject":{"reference":"Patient/925b4f30-ea5c-47c3-a24f-8bfcec5dcdf6"},"period":{"start":"2025-01-01T00:00:00.000Z","end":"2025-01-01T01:00:00.000Z"}},"request":{"method":"PUT","url":"Encounter/Encounter-5"}},{"fullUrl":"https://madie.cms.gov/MedicationDispense/MedicationDispense-5","resource":{"resourceType":"MedicationDispense","id":"MedicationDispense-5","meta":{"profile":["http://hl7.org/fhir/us/qicore/StructureDefinition/qicore-medicationdispense"]},"status":"completed","medicationCodeableConcept":{"coding":[{"system":"http://www.nlm.nih.gov/research/umls/rxnorm","code":"1099316","display":"desipramine hydrochloride 75 MG Oral Tablet"}]},"subject":{"reference":"Patient/925b4f30-ea5c-47c3-a24f-8bfcec5dcdf6"},"daysSupply":{"value":10,"system":"http://unitsofmeasure.org","code":"days"},"whenHandedOver":"2025-01-01T01:00:00.000Z"},"request":{"method":"PUT","url":"MedicationDispense/MedicationDispense-5"}},{"fullUrl":"https://madie.cms.gov/Condition/Condition-5","resource":{"resourceType":"Condition","id":"Condition-5","meta":{"profile":["http://hl7.org/fhir/us/qicore/StructureDefinition/qicore-condition"]},"clinicalStatus":{"coding":[{"system":"http://terminology.hl7.org/CodeSystem/condition-clinical","code":"active"}]},"category":[{"coding":[{"system":"http://terminology.hl7.org/CodeSystem/condition-category","code":"problem-list-item","display":"Problem List Item"}]}],"code":{"coding":[{"system":"http://snomed.info/sct","code":"15193003","display":"Severe recurrent major depression with psychotic features, mood-incongruent (disorder)"}]},"subject":{"reference":"Patient/925b4f30-ea5c-47c3-a24f-8bfcec5dcdf6"},"onsetDateTime":"2025-01-01T01:00:00.000Z"},"request":{"method":"PUT","url":"Condition/Condition-5"}},{"fullUrl":"https://madie.cms.gov/MedicationRequest/MedicationRequest-5","resource":{"resourceType":"MedicationRequest","id":"MedicationRequest-5","meta":{"profile":["http://hl7.org/fhir/us/qicore/StructureDefinition/qicore-medicationrequest"]},"status":"active","intent":"order","medicationCodeableConcept":{"coding":[{"system":"http://www.nlm.nih.gov/research/umls/rxnorm","code":"1099316","display":"desipramine hydrochloride 75 MG Oral Tablet"}]},"subject":{"reference":"Patient/925b4f30-ea5c-47c3-a24f-8bfcec5dcdf6"},"authoredOn":"2023-01-01T00:00:00.000Z","requester":{"reference":"Practitioner/practitioner-123456"},"dosageInstruction":[{"timing":{"repeat":{"boundsPeriod":{"start":"2023-01-01T00:00:00.000Z","end":"2024-09-17T23:59:59.000Z"}}}}]},"request":{"method":"PUT","url":"MedicationRequest/MedicationRequest-5"}},{"fullUrl":"https://madie.cms.gov/MeasureReport/8a06e321-ca5c-4376-b6b3-95b0e8106d16","resource":{"resourceType":"MeasureReport","id":"8a06e321-ca5c-4376-b6b3-95b0e8106d16","meta":{"profile":["http://hl7.org/fhir/us/cqfmeasures/StructureDefinition/test-case-cqfm"]},"contained":[{"resourceType":"Parameters","id":"2a5bb7f2-75a8-4bb8-bc5f-2537b8c1f9de-parameters","parameter":[{"name":"subject","valueString":"925b4f30-ea5c-47c3-a24f-8bfcec5dcdf6"}]}],"extension":[{"url":"http://hl7.org/fhir/us/cqfmeasures/StructureDefinition/cqfm-inputParameters","valueReference":{"reference":"#2a5bb7f2-75a8-4bb8-bc5f-2537b8c1f9de-parameters"}},{"url":"http://hl7.org/fhir/us/cqfmeasures/StructureDefinition/cqfm-testCaseDescription","valueMarkdown":"Active antidepressant ends 106 days prior to IPSD"}],"modifierExtension":[{"url":"http://hl7.org/fhir/us/cqfmeasures/StructureDefinition/cqfm-isTestCase","valueBoolean":true}],"status":"complete","type":"individual","measure":"https://madie.cms.gov/Measure/AntidepressantMedicationManagementFHIR","period":{"start":"2025-01-01","end":"2025-12-31"},"group":[{"population":[{"code":{"coding":[{"system":"http://terminology.hl7.org/CodeSystem/measure-population","code":"initial-population","display":"Initial Population"}]},"count":1},{"code":{"coding":[{"system":"http://terminology.hl7.org/CodeSystem/measure-population","code":"denominator","display":"Denominator"}]},"count":1},{"code":{"coding":[{"system":"http://terminology.hl7.org/CodeSystem/measure-population","code":"denominator-exclusion","display":"Denominator Exclusion"}]},"count":0},{"code":{"coding":[{"system":"http://terminology.hl7.org/CodeSystem/measure-population","code":"numerator","display":"Numerator"}]},"count":0}]},{"population":[{"code":{"coding":[{"system":"http://terminology.hl7.org/CodeSystem/measure-population","code":"initial-population","display":"Initial Population"}]},"count":1},{"code":{"coding":[{"system":"http://terminology.hl7.org/CodeSystem/measure-population","code":"denominator","display":"Denominator"}]},"count":1},{"code":{"coding":[{"system":"http://terminology.hl7.org/CodeSystem/measure-population","code":"denominator-exclusion","display":"Denominator Exclusion"}]},"count":0},{"code":{"coding":[{"system":"http://terminology.hl7.org/CodeSystem/measure-population","code":"numerator","display":"Numerator"}]},"count":0}]}],"evaluatedResource":[{"reference":"Patient/925b4f30-ea5c-47c3-a24f-8bfcec5dcdf6"},{"reference":"Encounter/Encounter-5"},{"reference":"MedicationDispense/MedicationDispense-5"},{"reference":"Condition/Condition-5"},{"reference":"MedicationRequest/MedicationRequest-5"}]},"request":{"method":"PUT","url":"MeasureReport/8a06e321-ca5c-4376-b6b3-95b0e8106d16"}}]}