{"resourceType":"Bundle","id":"tests-6f0c3642-5efc-4923-ac24-9f5e9d1831d6-bundle","type":"transaction","entry":[{"fullUrl":"https://madie.cms.gov/Patient/6f0c3642-5efc-4923-ac24-9f5e9d1831d6","resource":{"resourceType":"Patient","id":"6f0c3642-5efc-4923-ac24-9f5e9d1831d6","meta":{"profile":["http://hl7.org/fhir/us/qicore/StructureDefinition/qicore-patient"]},"extension":[{"url":"http://hl7.org/fhir/us/core/StructureDefinition/us-core-race","extension":[{"url":"ombCategory","valueCoding":{"system":"urn:oid:2.16.840.1.113883.6.238","code":"2054-5","display":"Black or African American","userSelected":true}},{"url":"text","valueString":"Black or African American"}]},{"url":"http://hl7.org/fhir/us/core/StructureDefinition/us-core-ethnicity","extension":[{"url":"ombCategory","valueCoding":{"system":"urn:oid:2.16.840.1.113883.6.238","code":"2186-5","display":"Not Hispanic or Latino","userSelected":true}},{"url":"text","valueString":"Not Hispanic or Latino"}]}],"identifier":[{"type":{"coding":[{"system":"http://terminology.hl7.org/CodeSystem/v2-0203","code":"MR"}]},"system":"https://bonnie-fhir.healthit.gov/","value":"62fbe4dbbf5132f90ee35d37"}],"name":[{"family":"DENEXFail","given":["DischargeToHospiceFacilityAfterMP"]}],"gender":"male","birthDate":"1945-10-15"},"request":{"method":"PUT","url":"Patient/6f0c3642-5efc-4923-ac24-9f5e9d1831d6"}},{"fullUrl":"https://madie.cms.gov/Encounter/encounter-to-evaluate-bmi-533f","resource":{"resourceType":"Encounter","id":"encounter-to-evaluate-bmi-533f","meta":{"profile":["http://hl7.org/fhir/us/qicore/StructureDefinition/qicore-encounter"]},"status":"finished","class":{"system":"http://terminology.hl7.org/CodeSystem/v3-ActCode","code":"AMB","display":"ambulatory"},"type":[{"coding":[{"system":"http://snomed.info/sct","version":"2022-03","code":"10197000","display":"Psychiatric interview and evaluation (procedure)","userSelected":true}]}],"subject":{"reference":"Patient/6f0c3642-5efc-4923-ac24-9f5e9d1831d6"},"period":{"start":"2025-01-01T00:00:00.000+00:00","end":"2025-01-01T00:30:00.000+00:00"}},"request":{"method":"PUT","url":"Encounter/encounter-to-evaluate-bmi-533f"}},{"fullUrl":"https://madie.cms.gov/Observation/body-mass-index-bmi-ratio-5d32","resource":{"resourceType":"Observation","id":"body-mass-index-bmi-ratio-5d32","meta":{"profile":["http://hl7.org/fhir/StructureDefinition/bmi"]},"status":"final","category":[{"coding":[{"system":"http://terminology.hl7.org/CodeSystem/observation-category","code":"vital-signs","display":"Vital Signs"}]}],"code":{"coding":[{"system":"http://loinc.org","code":"39156-5","display":"Body mass index (BMI) [Ratio]","userSelected":true}]},"subject":{"reference":"Patient/6f0c3642-5efc-4923-ac24-9f5e9d1831d6"},"effectiveDateTime":"2025-01-01T00:30:00.000+00:00","valueQuantity":{"value":25,"unit":"kg/m2","system":"http://unitsofmeasure.org","code":"kg/m2"}},"request":{"method":"PUT","url":"Observation/body-mass-index-bmi-ratio-5d32"}},{"fullUrl":"https://madie.cms.gov/Procedure/follow-up-for-above-normal-bmi-5d34","resource":{"resourceType":"Procedure","id":"follow-up-for-above-normal-bmi-5d34","meta":{"profile":["http://hl7.org/fhir/us/qicore/StructureDefinition/qicore-procedure"]},"extension":[{"url":"http://hl7.org/fhir/us/qicore/StructureDefinition/qicore-recorded","valueDateTime":"2025-01-01T00:30:00.000+00:00"}],"status":"completed","code":{"coding":[{"system":"http://snomed.info/sct","version":"2022-03","code":"182922004","display":"Dietary regime (regime/therapy)","userSelected":true}]},"subject":{"reference":"Patient/6f0c3642-5efc-4923-ac24-9f5e9d1831d6"},"performedDateTime":"2025-01-01T00:30:00.000+00:00","reasonCode":[{"coding":[{"system":"http://hl7.org/fhir/sid/icd-10-cm","code":"E66.01","display":"Morbid (severe) obesity due to excess calories","userSelected":true}]}]},"request":{"method":"PUT","url":"Procedure/follow-up-for-above-normal-bmi-5d34"}},{"fullUrl":"https://madie.cms.gov/Encounter/encounter-inpatient-5d35","resource":{"resourceType":"Encounter","id":"encounter-inpatient-5d35","meta":{"profile":["http://hl7.org/fhir/us/qicore/StructureDefinition/qicore-encounter"]},"status":"finished","class":{"system":"http://terminology.hl7.org/CodeSystem/v3-ActCode","code":"AMB","display":"ambulatory"},"type":[{"coding":[{"system":"http://snomed.info/sct","version":"2022-03","code":"183452005","display":"Emergency hospital admission (procedure)","userSelected":true}]}],"subject":{"reference":"Patient/6f0c3642-5efc-4923-ac24-9f5e9d1831d6"},"period":{"start":"2025-02-26T08:00:00.000+00:00","end":"2025-03-01T08:15:00.000+00:00"},"hospitalization":{"dischargeDisposition":{"coding":[{"system":"http://snomed.info/sct","code":"428361000124107","display":"Discharge to home for hospice care (procedure)","userSelected":true}]}}},"request":{"method":"PUT","url":"Encounter/encounter-inpatient-5d35"}},{"fullUrl":"https://madie.cms.gov/Coverage/1","resource":{"resourceType":"Coverage","id":"Coverage-1","meta":{"profile":["http://hl7.org/fhir/us/qicore/StructureDefinition/qicore-coverage"]},"status":"active","beneficiary":{"reference":"Patient/6f0c3642-5efc-4923-ac24-9f5e9d1831d6"},"payor":[{"reference":"Organization/Org-123456"}]},"request":{"method":"PUT","url":"Coverage/Coverage-1"}},{"fullUrl":"https://madie.cms.gov/Organization/123456","resource":{"resourceType":"Organization","id":"Org-123456","meta":{"profile":["http://hl7.org/fhir/us/qicore/StructureDefinition/qicore-organization"]},"identifier":[{"use":"temp","system":"urn:oid:2.16.840.1.113883.4.4","value":"21-3259825"}],"active":true,"type":[{"coding":[{"system":"http://terminology.hl7.org/CodeSystem/organization-type","code":"pay","display":"Payer"}]}],"name":"Blue Cross Blue Shield of Texas","telecom":[{"system":"phone","value":"(+1) 972-766-6900"}],"address":[{"use":"billing","type":"postal","line":["P.O. Box 660044"],"city":"Dallas","state":"TX","postalCode":"75266-0044","country":"USA"}]},"request":{"method":"PUT","url":"Organization/Org-123456"}},{"fullUrl":"https://madie.cms.gov/MeasureReport/02dfee5b-208b-4330-9354-65b428bae502","resource":{"resourceType":"MeasureReport","id":"02dfee5b-208b-4330-9354-65b428bae502","meta":{"profile":["http://hl7.org/fhir/us/cqfmeasures/StructureDefinition/test-case-cqfm"]},"contained":[{"resourceType":"Parameters","id":"25762537-fea9-4edd-95d2-2445571a714a-parameters","parameter":[{"name":"subject","valueString":"6f0c3642-5efc-4923-ac24-9f5e9d1831d6"}]}],"extension":[{"url":"http://hl7.org/fhir/us/cqfmeasures/StructureDefinition/cqfm-inputParameters","valueReference":{"reference":"#25762537-fea9-4edd-95d2-2445571a714a-parameters"}},{"url":"http://hl7.org/fhir/us/cqfmeasures/StructureDefinition/cqfm-testCaseDescription","valueMarkdown":"Adult, had amb enc first day of MP, has BMI high at 25 kg/m2, was discharge to hospice during MP"}],"modifierExtension":[{"url":"http://hl7.org/fhir/us/cqfmeasures/StructureDefinition/cqfm-isTestCase","valueBoolean":true}],"status":"complete","type":"individual","measure":"https://madie.cms.gov/Measure/PCSBMIScreenAndFollowUpFHIR","period":{"start":"2025-01-01","end":"2025-12-31"},"group":[{"population":[{"code":{"coding":[{"system":"http://terminology.hl7.org/CodeSystem/measure-population","code":"initial-population","display":"Initial Population"}]},"count":1},{"code":{"coding":[{"system":"http://terminology.hl7.org/CodeSystem/measure-population","code":"denominator","display":"Denominator"}]},"count":1},{"code":{"coding":[{"system":"http://terminology.hl7.org/CodeSystem/measure-population","code":"denominator-exclusion","display":"Denominator Exclusion"}]},"count":1},{"code":{"coding":[{"system":"http://terminology.hl7.org/CodeSystem/measure-population","code":"numerator","display":"Numerator"}]},"count":0},{"code":{"coding":[{"system":"http://terminology.hl7.org/CodeSystem/measure-population","code":"denominator-exception","display":"Denominator Exception"}]},"count":0}]}],"evaluatedResource":[{"reference":"Patient/6f0c3642-5efc-4923-ac24-9f5e9d1831d6"},{"reference":"Encounter/encounter-to-evaluate-bmi-533f"},{"reference":"Observation/body-mass-index-bmi-ratio-5d32"},{"reference":"Procedure/follow-up-for-above-normal-bmi-5d34"},{"reference":"Encounter/encounter-inpatient-5d35"},{"reference":"Coverage/Coverage-1"},{"reference":"Organization/Org-123456"}]},"request":{"method":"PUT","url":"MeasureReport/02dfee5b-208b-4330-9354-65b428bae502"}}]}